File: RReflektometrie/Daten/messung1_1306.uxd
; (content of file C:\Users\Bruker\Desktop\Praktikum\LindhauerRauter\messung1_1306.raw)
_FILEVERSION = 2
_SAMPLE =
_+SAMPLE =
_SITE = Dortmund
_USER = "Metin Tolan"
_GONIOMETER_CODE = 21
_STAGE_CODE = 8
; Goniometer : D8 theta/theta, stage : XYZ Drive(s)
_SAMPLE_CHANGER_CODE = 0
_ATTACHMENTS_CODE = 0
_GONIOMETER_RADIUS = 300
_FIXED_DIVSLIT = 0.15
_FIXED_SAMPLESLIT = 1
_SOLLER_SLITS = 2
_FIXED_DETSLIT = 1
_MONOCHROMATOR = 0
; Incident beam monochromator : None
_THIN_FILM = N
_BETA_FILTER = N
_FIXED_ANTISLIT = 0.15
_ANALYZER_CODE = 0
; Received beam analyzer : None
_DATEMEASURED = "16-Feb-2017 12:17:12"
_WL_UNIT = A
_WL1 = 1.5406
_WL2 = 1.54439
_WL3 = 1.39222
_WLRATIO = 0.5
_ANODE = Cu

; Data for range 1
_DRIVE = THETA
_STEPTIME = 4.994
_STEPSIZE = 0.005
_STEPMODE = C
_START = 0
_THETA = 0
_2THETA = 0
_KHI = 0
_PHI = 0
_X = 29
_Y = -5
_Z = -19.1225
_DETECTOR = 1
; Detector type : Scintillation counter
_HV = 743.4
_GAIN = 80
_LLD = 0.98
_ULD = 2.01
_DETECTORSLIT = out
_AUX1 = 0
_AUX2 = 0
_AUX3 = 0
_TIMESTARTED = 1
_TEMP_RATE = -1
_TEMP_DELAY = -1
_KV = 40
_MA = 40
_RANGE_WL = 1.5406
_3DPLANE = 0
_V4_COUNTERS_MASK = 1
_V4_DRIVES_MASK = 0
_V4_ENCODERS_MASK = 0
_2THETACOUNTS = 1
; THETA  Cnt1_D1
   0.0000   70850200
   0.0050   82816600
   0.0100   83692704
   0.0150   68953800
   0.0200   53662700
   0.0250   38683700
   0.0300   27245400
   0.0350   20068000
   0.0400   16911400
   0.0450   17007400
   0.0500   18303700
   0.0550   19395900
   0.0600   21232200
   0.0650   21928400
   0.0700   23608700
   0.0750   23848800
   0.0800   26453300
   0.0850   27689500
   0.0900   29093800
   0.0950   31458300
   0.1000   31542300
   0.1050   33390700
   0.1100   34662900
   0.1150   36619300
   0.1200   38347700
   0.1250   39211800
   0.1300   40952200
   0.1350   43544700
   0.1400   42896600
   0.1450   43976800
   0.1500   44937000
   0.1550   41996400
   0.1600   43232600
   0.1650   44985000
   0.1700   47109400
   0.1750   46797400
   0.1800   48741700
   0.1850   49677900
   0.1900   52090400
   0.1950   52738500
   0.2000   50974200
   0.2050   48813800
   0.2100   45585100
   0.2150   43004600
   0.2200   35083000
   0.2250   28325700
   0.2300   18759800
   0.2350   10730100
   0.2400    6433290
   0.2450    4147830
   0.2500    4103220
   0.2550    4603020
   0.2600    4980860
   0.2650    4694570
   0.2700    3889830
   0.2750    2820470
   0.2800    1769040
   0.2850    1117350
   0.2900     964305
   0.2950    1164880
   0.3000    1551930
   0.3050    1844750
   0.3100    1834850
   0.3150    1646620
   0.3200    1252700
   0.3250     846198
   0.3300     529267
   0.3350     374444
   0.3400     431581
   0.3450     587494
   0.3500     760567
   0.3550     867161
   0.3600     852329
   0.3650     729454
   0.3700     546532
   0.3750     359199
   0.3800     233161
   0.3850     193469
   0.3900     230104
   0.3950     317962
   0.4000     408773
   0.4050     459457
   0.4100     457383
   0.4150     388683
   0.4200     300719
   0.4250     201149
   0.4300     131814
   0.4350     108943
   0.4400     125943
   0.4450     173993
   0.4500     228517
   0.4550     261333
   0.4600     263047
   0.4650     235922
   0.4700     185535
   0.4750     130333
   0.4800      86663
   0.4850      67843
   0.4900      73323
   0.4950      98194
   0.5000     127847
   0.5050     152877
   0.5100     162250
   0.5150     151470
   0.5200     126810
   0.5250      92979
   0.5300      64765
   0.5350      43517
   0.5400      42762
   0.5450      53793
   0.5500      72396
   0.5550      89361
   0.5600      99348
   0.5650      97780
   0.5700      85683
   0.5750      66564
   0.5800      46684
   0.5850      33031
   0.5900      27656
   0.5950      32108
   0.6000      42321
   0.6050      54195
   0.6100      63821
   0.6150      66280
   0.6200      61069
   0.6250      50419
   0.6300      37420
   0.6350      26126
   0.6400      20154
   0.6450      19823
   0.6500      25333
   0.6550      33341
   0.6600      40982
   0.6650      45294
   0.6700      44128
   0.6750      38776
   0.6800      30791
   0.6850      22083
   0.6900      16003
   0.6950      13714
   0.7000      15822
   0.7050      20449
   0.7100      26067
   0.7150      30406
   0.7200      31963
   0.7250      30107
   0.7300      25167
   0.7350      18887
   0.7400      13624
   0.7450      10515
   0.7500      10054
   0.7550      12454
   0.7600      16260
   0.7650      20140
   0.7700      22592
   0.7750      22268
   0.7800      20102
   0.7850      16316
   0.7900      11964
   0.7950       8945
   0.8000       7346
   0.8050       8046
   0.8100      10308
   0.8150      12834
   0.8200      15570
   0.8250      16637
   0.8300      16077
   0.8350      13928
   0.8400      10926
   0.8450       8142
   0.8500       5995
   0.8550       5604
   0.8600       6431
   0.8650       8202
   0.8700      10378
   0.8750      11921
   0.8800      12454
   0.8850      11419
   0.8900       9616
   0.8950       7436
   0.9000       5571
   0.9050       4361
   0.9100       4234
   0.9150       5252
   0.9200       6920
   0.9250       8129
   0.9300       9142
   0.9350       9024
   0.9400       8172
   0.9450       6832
   0.9500       5194
   0.9550       3853
   0.9600       3243
   0.9650       3579
   0.9700       4312
   0.9750       5425
   0.9800       6382
   0.9850       6967
   0.9900       6763
   0.9950       5955
   1.0000       4889
   1.0050       3643
   1.0100       2814
   1.0150       2467
   1.0200       2759
   1.0250       3538
   1.0300       4430
   1.0350       5041
   1.0400       5220
   1.0450       5188
   1.0500       4296
   1.0550       3483
   1.0600       2625
   1.0650       2074
   1.0700       2108
   1.0750       2387
   1.0800       2905
   1.0850       3709
   1.0900       3968
   1.0950       4121
   1.1000       3719
   1.1050       3165
   1.1100       2464
   1.1150       1888
   1.1200       1551
   1.1250       1693
   1.1300       1985
   1.1350       2341
   1.1400       2891
   1.1450       3223
   1.1500       3248
   1.1550       2950
   1.1600       2363
   1.1650       1824
   1.1700       1408
   1.1750       1330
   1.1800       1282
   1.1850       1618
   1.1900       2034
   1.1950       2268
   1.2000       2492
   1.2050       2445
   1.2100       2197
   1.2150       1723
   1.2200       1350
   1.2250       1086
   1.2300       1021
   1.2350       1095
   1.2400       1355
   1.2450       1679
   1.2500       1917
   1.2550       2051
   1.2600       1974
   1.2650       1609
   1.2700       1249
   1.2750        991
   1.2800        850
   1.2850        823
   1.2900        923
   1.2950       1191
   1.3000       1401
   1.3050       1514
   1.3100       1613
   1.3150       1499
   1.3200       1271
   1.3250       1044
   1.3300        765
   1.3350        717
   1.3400        688
   1.3450        803
   1.3500        942
   1.3550       1144
   1.3600       1276
   1.3650       1175
   1.3700       1161
   1.3750        945
   1.3800        772
   1.3850        613
   1.3900        549
   1.3950        609
   1.4000        679
   1.4050        778
   1.4100        943
   1.4150       1029
   1.4200        967
   1.4250        849
   1.4300        734
   1.4350        571
   1.4400        523
   1.4450        425
   1.4500        502
   1.4550        605
   1.4600        698
   1.4650        775
   1.4700        838
   1.4750        783
   1.4800        691
   1.4850        582
   1.4900        435
   1.4950        384
   1.5000        380
   1.5050        434
   1.5100        494
   1.5150        613
   1.5200        648
   1.5250        642
   1.5300        626
   1.5350        518
   1.5400        450
   1.5450        366
   1.5500        308
   1.5550        308
   1.5600        335
   1.5650        411
   1.5700        507
   1.5750        508
   1.5800        557
   1.5850        461
   1.5900        436
   1.5950        328
   1.6000        302
   1.6050        251
   1.6100        265
   1.6150        303
   1.6200        320
   1.6250        404
   1.6300        445
   1.6350        492
   1.6400        418
   1.6450        337
   1.6500        282
   1.6550        237
   1.6600        204
   1.6650        196
   1.6700        269
   1.6750        325
   1.6800        350
   1.6850        373
   1.6900        335
   1.6950        318
   1.7000        257
   1.7050        224
   1.7100        192
   1.7150        184
   1.7200        189
   1.7250        219
   1.7300        278
   1.7350        285
   1.7400        282
   1.7450        280
   1.7500        249
   1.7550        216
   1.7600        164
   1.7650        125
   1.7700        147
   1.7750        163
   1.7800        178
   1.7850        196
   1.7900        234
   1.7950        248
   1.8000        223
   1.8050        195
   1.8100        178
   1.8150        129
   1.8200        143
   1.8250        137
   1.8300        135
   1.8350        178
   1.8400        199
   1.8450        206
   1.8500        218
   1.8550        149
   1.8600        150
   1.8650        109
   1.8700        107
   1.8750        100
   1.8800        122
   1.8850        134
   1.8900        130
   1.8950        158
   1.9000        177
   1.9050        149
   1.9100        141
   1.9150        146
   1.9200        103
   1.9250        105
   1.9300        105
   1.9350        110
   1.9400         93
   1.9450        136
   1.9500        137
   1.9550        139
   1.9600        125
   1.9650        148
   1.9700         89
   1.9750         88
   1.9800         97
   1.9850         90
   1.9900         91
   1.9950         94
   2.0000        120
   2.0050        106
   2.0100        129
   2.0150        110
   2.0200        110
   2.0250         87
   2.0300         88
   2.0350         86
   2.0400         85
   2.0450         78
   2.0500        102
   2.0550        110
   2.0600        108
   2.0650        111
   2.0700         75
   2.0750         73
   2.0800         84
   2.0850         72
   2.0900         64
   2.0950         58
   2.1000         80
   2.1050         66
   2.1100         83
   2.1150         75
   2.1200         76
   2.1250         81
   2.1300         82
   2.1350         64
   2.1400         58
   2.1450         51
   2.1500         50
   2.1550         49
   2.1600         62
   2.1650         66
   2.1700         88
   2.1750         63
   2.1800         72
   2.1850         55
   2.1900         58
   2.1950         47
   2.2000         36
   2.2050         42
   2.2100         48
   2.2150         59
   2.2200         57
   2.2250         64
   2.2300         72
   2.2350         51
   2.2400         55
   2.2450         63
   2.2500         37
   2.2550         42
   2.2600         48
   2.2650         52
   2.2700         62
   2.2750         62
   2.2800         52
   2.2850         53
   2.2900         46
   2.2950         42
   2.3000         38
   2.3050         45
   2.3100         23
   2.3150         42
   2.3200         44
   2.3250         45
   2.3300         40
   2.3350         52
   2.3400         38
   2.3450         52
   2.3500         46
   2.3550         28
   2.3600         31
   2.3650         36
   2.3700         37
   2.3750         46
   2.3800         52
   2.3850         34
   2.3900         49
   2.3950         44
   2.4000         31
   2.4050         28
   2.4100         27
   2.4150         31
   2.4200         23
   2.4250         38
   2.4300         38
   2.4350         33
   2.4400         44
   2.4450         40
   2.4500         30
   2.4550         26
   2.4600         32
   2.4650         28
   2.4700         31
   2.4750         22
   2.4800         23
   2.4850         42
   2.4900         33
   2.4950         35
   2.5000         22